File: Data/XRD/Clay Peels/D08_1165b.xy
5.02 14059.0
5.06 14170.2
5.1 14178.9
5.14 14144.4
5.18 14151.3
5.22 14138.8
5.26 14228.9
5.3 14158.0
5.34 14076.4
5.38 14175.0
5.42 14478.6
5.46 14550.4
5.5 14416.0
5.54 14618.2
5.58 14471.6
5.62 14477.4
5.66 14534.8
5.7 14685.9
5.74 14774.2
5.78 14551.6
5.82 14857.3
5.86 14763.2
5.9 14889.3
5.94 15046.0
5.98 15019.7
6.02 14986.5
6.06 15265.3
6.1 15416.6
6.14 15462.0
6.18 15491.5
6.22 15654.3
6.26 15717.3
6.3 15803.2
6.34 15731.0
6.38 15921.3
6.42 16122.7
6.46 16476.5
6.5 16328.4
6.54 16513.3
6.58 16916.9
6.62 17260.0
6.66 17511.8
6.7 17594.8
6.74 18022.4
6.78 18379.7
6.82 18668.4
6.86 19222.3
6.9 19904.1
6.94 20364.1
6.98 21284.5
7.02 21987.2
7.06 23039.4
7.1 23682.6
7.14 23779.0
7.18 23239.2
7.22 22194.6
7.26 21201.8
7.3 20455.1
7.34 19991.6
7.38 19946.1
7.42 19672.9
7.46 19532.4
7.5 19480.1
7.54 19195.2
7.58 19246.3
7.62 19287.2
7.66 19509.8
7.7 19349.2
7.74 19295.7
7.78 19735.3
7.82 19719.3
7.86 19898.6
7.9 19964.1
7.94 19841.7
7.98 20138.5
8.02 20247.2
8.06 20490.8
8.1 20671.1
8.14 20862.0
8.18 20930.9
8.22 21281.3
8.26 21519.4
8.3 21786.9
8.34 21933.1
8.38 22194.4
8.42 22586.5
8.46 22708.7
8.5 22905.9
8.54 23021.7
8.58 23424.1
8.62 23688.9
8.66 23716.3
8.7 24029.0
8.74 24306.5
8.78 24661.4
8.82 24799.1
8.86 25002.7
8.9 25187.0
8.94 25501.9
8.98 25667.2
9.02 26029.3
9.06 25920.3
9.1 26414.5
9.14 26321.2
9.18 26896.8
9.22 27022.8
9.26 27077.2
9.3 27601.7
9.34 27360.9
9.38 27731.6
9.42 28107.3
9.46 27881.0
9.5 28313.4
9.54 28886.8
9.58 28743.4
9.62 29347.5
9.66 29627.5
9.7 29950.4
9.74 30589.6
9.78 31455.8
9.82 32116.3
9.86 32758.9
9.9 34512.4
9.94 35925.2
9.98 38062.7
10.02 40389.1
10.06 43740.7
10.1 47651.4
10.14 52291.6
10.18 55322.3
10.22 52821.4
10.26 43987.8
10.3 35555.4
10.34 30511.5
10.38 27075.2
10.42 25069.3
10.46 23136.8
10.5 21977.6
10.54 20786.0
10.58 19981.2
10.62 18858.3
10.66 18093.6
10.7 17699.6
10.74 17236.8
10.78 16657.7
10.82 16296.6
10.86 15929.5
10.9 15777.5
10.94 15497.5
10.98 15103.5
11.02 14832.5
11.06 14841.8
11.1 14561.1
11.14 14375.0
11.18 14238.2
11.22 14128.6
11.26 13944.6
11.3 13893.7
11.34 13872.8
11.38 13752.7
11.42 13476.1
11.46 13403.4
11.5 13240.6
11.54 13347.6
11.58 13328.3
11.62 13207.4
11.66 13322.7
11.7 13046.1
11.74 13021.7
11.78 13067.5
11.82 13024.0
11.86 13067.3
11.9 12991.8
11.94 13082.8
11.98 12965.0
12.02 12968.5
12.06 12880.0
12.1 12862.4
12.14 12727.4
12.18 12781.3
12.22 12762.0
12.26 12787.0
12.3 12748.3
12.34 12853.2
12.38 12831.9
12.42 12776.0
12.46 12823.5
12.5 12865.3
12.54 12779.3
12.58 12963.2
12.62 12996.7
12.66 13148.9
12.7 13134.4
12.74 13099.3
12.78 13143.0
12.82 13443.4
12.86 13276.1
12.9 13382.6
12.94 13542.8
12.98 13696.7
13.02 13629.8
13.06 13850.9
13.1 13833.1
13.14 13650.4
13.18 13739.9
13.22 13959.3
13.26 13904.9
13.3 14281.5
13.34 14527.9
13.38 14584.3
13.42 14587.8
13.46 14823.9
13.5 15360.5
13.54 15469.1
13.58 16152.5
13.62 16302.3
13.66 16792.7
13.7 17261.9
13.74 17865.1
13.78 18594.1
13.82 19379.4
13.86 20094.7
13.9 21619.3
13.94 22623.6
13.98 24711.3
14.02 26511.5
14.06 29196.0
14.1 31994.5
14.14 34979.4
14.18 39312.1
14.22 43532.8
14.26 48301.4
14.3 53435.1
14.34 57507.7
14.38 60122.5
14.42 59689.2
14.46 54381.5
14.5 45696.6
14.54 37134.7
14.58 31120.4
14.62 26734.0
14.66 23677.6
14.7 21441.0
14.74 19720.7
14.78 18215.3
14.82 17309.3
14.86 16487.2
14.9 15854.6
14.94 15199.9
14.98 14493.1
15.02 14130.1
15.06 13500.9
15.1 13085.5
15.14 12991.7
15.18 12832.4
15.22 12448.3
15.26 12231.0
15.3 12000.4
15.34 12077.9
15.38 11849.1
15.42 11541.8
15.46 11500.8
15.5 11291.0
15.54 11322.9
15.58 11181.2
15.62 11017.5
15.66 11052.2
15.7 11014.1
15.74 10775.8
15.78 10611.2
15.82 10513.9
15.86 10566.3
15.9 10618.2
15.94 10435.0
15.98 10319.8
16.02 10497.2
16.06 10322.7
16.1 10069.9
16.14 10094.2
16.18 10205.5
16.22 10098.3
16.26 9901.9
16.3 9843.0
16.34 10003.3
16.38 9835.3
16.42 9762.7
16.46 9696.4
16.5 9810.7
16.54 9622.2
16.58 9658.3
16.62 9475.8
16.66 9496.6
16.7 9542.7
16.74 9470.9
16.78 9597.4
16.82 9429.6
16.86 9385.9
16.9 9457.5
16.94 9497.7
16.98 9256.6
17.02 9100.5
17.06 9366.7
17.1 9266.4
17.14 9285.4
17.18 9182.1
17.22 9178.3
17.26 9029.1
17.3 9227.8
17.34 9110.6
17.38 9079.1
17.42 9086.7
17.46 9074.1
17.5 8965.2
17.54 8801.6
17.58 8911.8
17.62 9052.7
17.66 8951.1
17.7 8849.3
17.74 8948.8
17.78 8921.3
17.82 8841.8
17.86 8844.9
17.9 8719.4
17.94 8700.5
17.98 8760.7
18.02 8749.7
18.06 8883.9
18.1 8764.4
18.14 8839.2
18.18 8725.4
18.22 8787.4
18.26 8716.9
18.3 8852.3
18.34 8824.6
18.38 8749.1
18.42 8678.9
18.46 8776.3
18.5 8792.8
18.54 8617.0
18.58 8857.6
18.62 8974.1
18.66 8765.3
18.7 8851.4
18.74 8880.6
18.78 8927.8
18.82 8866.5
18.86 8978.2
18.9 8912.8
18.94 9152.5
18.98 8860.1
19.02 9118.1
19.06 8960.9
19.1 8891.3
19.14 8937.5
19.18 8958.9
19.22 9057.1
19.26 9105.2
19.3 9108.6
19.34 9283.3
19.38 9364.7
19.42 9371.8
19.46 9583.7
19.5 9505.9
19.54 9594.8
19.58 9791.0
19.62 9833.7
19.66 9903.0
19.7 10127.4
19.74 10189.6
19.78 10249.7
19.82 10341.6
19.86 10608.4
19.9 10920.9
19.94 11058.6
19.98 11331.4
20.02 11570.1
20.06 11803.1
20.1 12251.2
20.14 12605.7
20.18 13422.4
20.22 13862.5
20.26 14644.3
20.3 15702.2
20.34 16897.2
20.38 18529.1
20.42 20240.7
20.46 22820.3
20.5 25360.8
20.54 27671.0
20.58 27926.6
20.62 25730.4
20.66 22661.5
20.7 19808.2
20.74 17886.0
20.78 16589.2
20.82 15576.7
20.86 14915.9
20.9 14074.5
20.94 13864.6
20.98 13294.2
21.02 13120.1
21.06 12813.0
21.1 12690.9
21.14 12603.0
21.18 12738.8
21.22 12795.9
21.26 12888.1
21.3 13056.5
21.34 13059.9
21.38 13509.9
21.42 13854.7
21.46 14124.8
21.5 14579.9
21.54 15035.2
21.58 15436.7
21.62 15891.7
21.66 16483.6
21.7 16798.0
21.74 16881.4
21.78 16513.6
21.82 15385.8
21.86 13883.1
21.9 12558.3
21.94 11750.0
21.98 11228.5
22.02 10630.1
22.06 10075.7
22.1 9860.7
22.14 9591.7
22.18 9392.0
22.22 9122.3
22.26 8904.0
22.3 8944.7
22.34 8697.4
22.38 8509.5
22.42 8309.6
22.46 8223.8
22.5 8059.8
22.54 7956.2
22.58 7882.0
22.62 7876.5
22.66 7983.7
22.7 7821.7
22.74 7989.0
22.78 7930.1
22.82 7802.8
22.86 7863.0
22.9 7695.0
22.94 7710.3
22.98 7574.9
23.02 7608.7
23.06 7505.7
23.1 7478.6
23.14 7287.3
23.18 7200.9
23.22 7241.3
23.26 7166.6
23.3 7048.5
23.34 7050.1
23.38 6861.0
23.42 6983.3
23.46 6874.7
23.5 7000.4
23.54 6820.6
23.58 6967.3
23.62 6871.8
23.66 6906.4
23.7 6770.8
23.74 6822.3
23.78 6752.5
23.82 6725.6
23.86 6823.8
23.9 6817.7
23.94 6828.3
23.98 6994.3
24.02 7120.9
24.06 7283.7
24.1 7587.0
24.14 8340.6
24.18 9235.9
24.22 8661.6
24.26 7563.2
24.3 6988.2
24.34 6654.1
24.38 6600.7
24.42 6588.4
24.46 6396.9
24.5 6386.8
24.54 6392.6
24.58 6531.5
24.62 6341.6
24.66 6406.6
24.7 6325.1
24.74 6321.0
24.78 6272.8
24.82 6237.6
24.86 6267.5
24.9 6306.7
24.94 6272.2
24.98 6273.6
25.02 6329.1
25.06 6277.5
25.1 6248.5
25.14 6162.0
25.18 6126.7
25.22 6154.3
25.26 6198.2
25.3 6121.0
25.34 6168.6
25.38 6229.0
25.42 6289.5
25.46 6347.7
25.5 6439.5
25.54 6416.3
25.58 6404.4
25.62 6266.8
25.66 6276.9
25.7 6066.9
25.74 6262.7
25.78 6229.1
25.82 5994.1
25.86 6094.0
25.9 5952.4
25.94 6174.7
25.98 6213.8
26.02 6304.5
26.06 6198.6
26.1 6221.2
26.14 6147.6
26.18 6075.7
26.22 6138.4
26.26 6177.7
26.3 6239.8
26.34 6189.6
26.38 6256.7
26.42 6179.9
26.46 6215.5
26.5 6224.5
26.54 6232.2
26.58 6231.2
26.62 6213.1
26.66 6154.5
26.7 6201.8
26.74 6242.9
26.78 6259.1
26.82 6111.6
26.86 6059.1
26.9 6033.3
26.94 6086.1
26.98 6071.0
27.02 6125.3
27.06 6112.7
27.1 6110.5
27.14 6119.3
27.18 6101.3
27.22 6166.8
27.26 6099.7
27.3 6344.0
27.34 6416.8
27.38 6477.5
27.42 6355.4
27.46 6308.6
27.5 6266.4
27.54 6205.2
27.58 6074.7
27.62 6270.1
27.66 6327.3
27.7 6361.1
27.74 6332.1
27.78 6369.6
27.82 6512.3
27.86 6558.6
27.9 6509.8
27.94 6562.8
27.98 6726.5
28.02 6901.7
28.06 7095.0
28.1 7252.6
28.14 7339.2
28.18 7385.0
28.22 7258.2
28.26 7404.7
28.3 7612.9
28.34 7686.0
28.38 8023.7
28.42 7915.9
28.46 8207.7
28.5 8593.3
28.54 8882.1
28.58 9084.9
28.62 9705.8
28.66 10081.0
28.7 10807.3
28.74 11695.1
28.78 12599.2
28.82 13717.0
28.86 14889.2
28.9 16473.6
28.94 18454.3
28.98 20288.6
29.02 22406.1
29.06 24517.2
29.1 26884.8
29.14 28634.6
29.18 29625.9
29.22 29276.5
29.26 27765.8
29.3 25279.2
29.34 22185.2
29.38 19509.5
29.42 17498.8
29.46 15860.8
29.5 14378.0
29.54 13381.2
29.58 12651.6
29.62 11831.7
29.66 11403.2
29.7 11056.6
29.74 10656.3
29.78 10374.6
29.82 10192.1
29.86 10045.3
29.9 9813.8
29.94 9457.0
29.98 9487.7
30.02 9442.0
30.06 9389.6
30.1 9291.2
30.14 9476.1
30.18 9360.5
30.22 9566.8
30.26 9482.9
30.3 9633.9
30.34 9798.9
30.38 10056.2
30.42 10138.9
30.46 10451.2
30.5 10579.2
30.54 11063.7
30.58 11412.8
30.62 12143.2
30.66 12540.5
30.7 13273.9
30.74 14165.7
30.78 15225.6
30.82 17297.3
30.86 20418.7
30.9 25589.3
30.94 31847.8
30.98 33699.5
31.02 34769.7
31.06 35468.0
31.1 36646.0
31.14 36771.6
31.18 34560.8
31.22 31330.7
31.26 27719.4
31.3 24100.4
31.34 21737.0
31.38 19784.5
31.42 18336.5
31.46 17384.7
31.5 16545.5
31.54 15447.4
31.58 15042.0
31.62 14338.8
31.66 14233.7
31.7 13700.7
31.74 13436.4
31.78 12881.3
31.82 12968.9
31.86 12917.6
31.9 12700.9
31.94 12136.6
31.98 11827.8
32.02 11581.2
32.06 11026.9
32.1 10964.1
32.14 10809.7
32.18 10782.3
32.22 10587.5
32.26 10483.2
32.3 10497.0
32.34 10256.2
32.38 10558.5
32.42 10995.3
32.46 11161.2
32.5 10666.2
32.54 9895.2
32.58 9226.5
32.62 8568.9
32.66 8539.3
32.7 8395.3
32.74 8308.2
32.78 8287.6
32.82 8062.3
32.86 7862.7
32.9 7719.2
32.94 7569.8
32.98 7355.4
33.02 7191.1
33.06 6979.7
33.1 7053.5
33.14 6923.8
33.18 6934.8
33.22 6807.5
33.26 6701.5
33.3 6706.2
33.34 6557.4
33.38 6583.7
33.42 6446.5
33.46 6472.9
33.5 6386.6
33.54 6449.9
33.58 6307.1
33.62 6251.2
33.66 6217.1
33.7 6277.7
33.74 6174.4
33.78 6217.0
33.82 6165.1
33.86 6044.6
33.9 6082.6
33.94 5968.8
33.98 6016.5
34.02 5994.3
34.06 5961.9
34.1 5948.6
34.14 5808.8
34.18 6020.5
34.22 6009.1
34.26 5846.2
34.3 5947.7
34.34 5920.3
34.38 5845.0
34.42 5877.4
34.46 5821.3
34.5 5810.5
34.54 5805.5
34.58 5825.0
34.62 5790.4
34.66 5811.1
34.7 5862.8
34.74 5869.3
34.78 5733.0
34.82 5830.0
34.86 5733.8
34.9 5731.6
34.94 5766.5
34.98 5887.4
35.02 5808.7
35.06 5737.6
35.1 5759.5
35.14 5648.6
35.18 5750.8
35.22 5737.7
35.26 5603.2
35.3 5627.0
35.34 5607.7
35.38 5743.6
35.42 5663.4
35.46 5772.9
35.5 5770.6
35.54 5750.9
35.58 5692.0
35.62 5610.3
35.66 5712.5
35.7 5683.9
35.74 5638.9
35.78 5817.5
35.82 5847.7
35.86 5692.4
35.9 5734.6
35.94 5848.7
35.98 5838.2
36.02 5996.0
36.06 6049.2
36.1 5925.4
36.14 6020.8
36.18 6243.5
36.22 6229.3
36.26 6334.5
36.3 6313.8
36.34 6499.0
36.38 6713.2
36.42 6852.0
36.46 6741.0
36.5 6858.9
36.54 7037.0
36.58 7148.2
36.62 7144.5
36.66 7277.2
36.7 7377.4
36.74 7365.2
36.78 7479.5
36.82 7182.5
36.86 7114.5
36.9 6778.8
36.94 6459.2
36.98 6155.2
37.02 6041.8
37.06 5877.0
37.1 5709.9
37.14 5742.4
37.18 5722.7
37.22 5707.3
37.26 5640.4
37.3 5540.1
37.34 5493.2
37.38 5436.6
37.42 5405.6
37.46 5347.2
37.5 5300.5
37.54 5244.7
37.58 5163.7
37.62 5083.6
37.66 5267.1
37.7 5149.5
37.74 5123.2
37.78 5114.9
37.82 4992.5
37.86 4997.4
37.9 5076.8
37.94 4946.4
37.98 4920.4
38.02 4807.1
38.06 4955.3
38.1 4904.6
38.14 4965.2
38.18 4885.2
38.22 4804.2
38.26 4732.9
38.3 4804.2
38.34 4789.5
38.38 4796.8
38.42 4675.9
38.46 4998.1
38.5 4799.5
38.54 5015.6
38.58 4799.5
38.62 4840.6
38.66 4838.3
38.7 4788.6
38.74 4837.1
38.78 4812.9
38.82 4832.3
38.86 4802.1
38.9 4742.0
38.94 4732.4
38.98 4703.7
39.02 4695.0
39.06 4697.4
39.1 4639.4
39.14 4694.5
39.18 4654.4
39.22 4756.4
39.26 4657.6
39.3 4597.6
39.34 4603.9
39.38 4733.9
39.42 4658.6
39.46 4560.7
39.5 4564.2
39.54 4517.1
39.58 4533.8
39.62 4623.7
39.66 4550.3
39.7 4513.7
39.74 4543.2
39.78 4640.4
39.82 4581.9
39.86 4526.1
39.9 4561.2
39.94 4581.9
39.98 4625.2
40.02 4597.0
40.06 4592.7
40.1 4649.0
40.14 4576.2
40.18 4679.7
40.22 4677.3
40.26 4707.0
40.3 4743.8
40.34 4822.7
40.38 4759.0
40.42 4761.3
40.46 4798.1
40.5 4796.1
40.54 4667.7
40.58 4717.2
40.62 4817.9
40.66 4805.1
40.7 4894.7
40.74 4905.8
40.78 4724.8
40.82 4846.0
40.86 4854.9
40.9 4779.2
40.94 4917.7
40.98 4671.3
41.02 4732.2
41.06 4606.7
41.1 4669.9
41.14 4699.5
41.18 4669.2
41.22 4544.6
41.26 4675.3
41.3 4648.4
41.34 4728.9
41.38 4774.0
41.42 4840.9
41.46 4793.9
41.5 4916.9
41.54 4925.1
41.58 4995.4
41.62 5047.2
41.66 5099.2
41.7 5274.4
41.74 5363.9
41.78 5715.9
41.82 5988.8
41.86 6015.9
41.9 6304.7
41.94 6331.0
41.98 6260.4
42.02 6134.2
42.06 5903.7
42.1 5597.2
42.14 5409.0
42.18 5011.4
42.22 4806.8
42.26 4625.3
42.3 4666.7
42.34 4482.0
42.38 4376.7
42.42 4427.0
42.46 4415.3
42.5 4412.0
42.54 4525.0
42.58 4702.5
42.62 4925.8
42.66 4714.6
42.7 4591.5
42.74 4424.2
42.78 4370.2
42.82 4253.6
42.86 4125.7
42.9 4171.8
42.94 4135.8
42.98 4162.7
43.02 4036.8
43.06 4149.3
43.1 4082.9
43.14 4208.8
43.18 4163.9
43.22 4138.1
43.26 4095.9
43.3 4083.1
43.34 4139.4
43.38 4120.4
43.42 4111.9
43.46 4064.8
43.5 3994.6
43.54 4234.7
43.58 4123.1
43.62 4143.3
43.66 4083.7
43.7 4019.2
43.74 4060.2
43.78 4086.0
43.82 4117.3
43.86 4183.9
43.9 4005.9
43.94 4037.3
43.98 4132.0
44.02 4100.0
44.06 4132.0
44.1 4185.6
44.14 4220.2
44.18 4076.6
44.22 4017.2
44.26 4016.4
44.3 3974.1
44.34 4044.8
44.38 3978.2
44.42 4032.1
44.46 3966.1
44.5 3919.1
44.54 3911.4
44.58 3947.5
44.62 3871.0
44.66 3971.7
44.7 3859.1
44.74 3946.3
44.78 3769.3
44.82 3893.3
44.86 3921.2
44.9 3936.8
44.94 3992.6
44.98 3816.1