File: Data/XRD/Clay Peels/D08_1080.xy
5.02 12216.9
5.06 12148.1
5.1 11975.7
5.14 11750.6
5.18 11817.8
5.22 11602.0
5.26 11694.0
5.3 11720.9
5.34 11435.7
5.38 11496.3
5.42 11234.1
5.46 11276.6
5.5 11295.5
5.54 11354.7
5.58 11331.5
5.62 11436.7
5.66 11320.2
5.7 11434.2
5.74 11278.0
5.78 11243.6
5.82 11282.7
5.86 11272.8
5.9 11275.2
5.94 11446.1
5.98 11303.1
6.02 11200.5
6.06 11398.7
6.1 11439.9
6.14 11482.2
6.18 11263.0
6.22 11600.0
6.26 11635.2
6.3 11648.7
6.34 11578.9
6.38 11814.3
6.42 11683.9
6.46 11841.0
6.5 11684.9
6.54 11809.4
6.58 11944.8
6.62 12012.7
6.66 12089.0
6.7 12191.1
6.74 12348.6
6.78 12432.5
6.82 12541.1
6.86 12940.3
6.9 13274.9
6.94 13683.1
6.98 13922.4
7.02 14378.1
7.06 14686.2
7.1 14921.3
7.14 14490.5
7.18 13827.1
7.22 13508.5
7.26 13084.0
7.3 12899.8
7.34 12425.2
7.38 12628.7
7.42 12500.2
7.46 12250.8
7.5 12492.9
7.54 12333.0
7.58 12485.1
7.62 12403.4
7.66 12352.1
7.7 12232.5
7.74 12365.4
7.78 12366.6
7.82 12429.2
7.86 12374.0
7.9 12392.2
7.94 12440.5
7.98 12408.4
8.02 12415.3
8.06 12541.3
8.1 12612.1
8.14 12785.6
8.18 12924.8
8.22 12679.9
8.26 12820.8
8.3 13057.1
8.34 13134.5
8.38 13160.3
8.42 13285.8
8.46 13569.1
8.5 13453.6
8.54 13611.0
8.58 13718.5
8.62 13747.7
8.66 13879.7
8.7 14140.5
8.74 14229.1
8.78 14361.5
8.82 14507.6
8.86 14890.5
8.9 15087.0
8.94 15080.1
8.98 15493.3
9.02 15467.9
9.06 15596.9
9.1 15987.9
9.14 16028.2
9.18 16382.1
9.22 16595.9
9.26 16548.1
9.3 16657.1
9.34 17189.2
9.38 17383.0
9.42 17420.4
9.46 17338.2
9.5 18052.5
9.54 18186.1
9.58 18351.5
9.62 18466.3
9.66 18975.8
9.7 19271.2
9.74 19656.4
9.78 20130.9
9.82 20850.2
9.86 21766.0
9.9 22791.9
9.94 23817.2
9.98 25189.7
10.02 27153.3
10.06 29173.9
10.1 31753.1
10.14 33238.3
10.18 30451.2
10.22 25038.0
10.26 20168.2
10.3 17367.4
10.34 15868.3
10.38 14657.4
10.42 13622.3
10.46 12889.7
10.5 12531.1
10.54 12106.0
10.58 11765.9
10.62 11308.8
10.66 10999.6
10.7 10729.4
10.74 10509.2
10.78 10422.9
10.82 10348.9
10.86 10141.0
10.9 10180.9
10.94 9846.9
10.98 9725.9
11.02 9698.9
11.06 9497.4
11.1 9447.3
11.14 9466.1
11.18 9388.7
11.22 9305.5
11.26 9316.3
11.3 9289.0
11.34 9069.7
11.38 9052.8
11.42 9006.2
11.46 9066.7
11.5 9000.5
11.54 8953.5
11.58 9025.3
11.62 8757.1
11.66 8943.0
11.7 8762.1
11.74 8703.7
11.78 8738.9
11.82 8713.8
11.86 8631.4
11.9 8701.8
11.94 8753.3
11.98 8601.9
12.02 8672.6
12.06 8596.5
12.1 8524.9
12.14 8495.1
12.18 8341.5
12.22 8445.1
12.26 8443.6
12.3 8574.9
12.34 8482.3
12.38 8394.1
12.42 8419.8
12.46 8425.7
12.5 8437.0
12.54 8242.9
12.58 8361.4
12.62 8473.4
12.66 8289.8
12.7 8349.8
12.74 8402.3
12.78 8395.1
12.82 8465.6
12.86 8305.7
12.9 8578.4
12.94 8554.1
12.98 8510.1
13.02 8443.3
13.06 8418.5
13.1 8370.4
13.14 8317.7
13.18 8248.2
13.22 8380.6
13.26 8399.5
13.3 8465.6
13.34 8600.0
13.38 8591.0
13.42 8498.0
13.46 8534.9
13.5 8648.1
13.54 8636.8
13.58 8891.8
13.62 8865.2
13.66 8991.3
13.7 9110.4
13.74 9304.8
13.78 9611.6
13.82 9641.2
13.86 10087.2
13.9 10356.3
13.94 10756.5
13.98 11370.6
14.02 12153.3
14.06 13149.0
14.1 14283.2
14.14 15404.9
14.18 17048.6
14.22 18956.6
14.26 20987.5
14.3 22895.1
14.34 24613.9
14.38 24716.4
14.42 22664.7
14.46 18800.3
14.5 15242.3
14.54 13118.4
14.58 11632.8
14.62 10842.4
14.66 10106.6
14.7 9668.6
14.74 9394.1
14.78 9055.9
14.82 8846.3
14.86 8550.1
14.9 8448.6
14.94 8360.0
14.98 8119.9
15.02 7901.0
15.06 7878.7
15.1 7926.0
15.14 7780.2
15.18 7711.3
15.22 7583.4
15.26 7633.7
15.3 7522.9
15.34 7585.0
15.38 7456.3
15.42 7418.5
15.46 7443.5
15.5 7337.6
15.54 7408.6
15.58 7295.7
15.62 7159.0
15.66 7232.4
15.7 7377.2
15.74 7208.1
15.78 7150.4
15.82 7133.2
15.86 7067.7
15.9 7130.9
15.94 7169.8
15.98 7197.7
16.02 7052.6
16.06 7068.0
16.1 7005.1
16.14 7004.4
16.18 6745.6
16.22 6803.0
16.26 6910.2
16.3 6850.9
16.34 6695.5
16.38 6662.7
16.42 6760.5
16.46 6728.0
16.5 6528.1
16.54 6695.6
16.58 6628.2
16.62 6604.8
16.66 6569.4
16.7 6561.2
16.74 6620.3
16.78 6614.5
16.82 6493.3
16.86 6554.1
16.9 6493.6
16.94 6523.5
16.98 6491.5
17.02 6477.0
17.06 6472.5
17.1 6448.9
17.14 6399.8
17.18 6404.7
17.22 6361.4
17.26 6304.1
17.3 6244.1
17.34 6312.3
17.38 6290.6
17.42 6239.3
17.46 6377.9
17.5 6082.5
17.54 6279.1
17.58 6223.4
17.62 6144.6
17.66 6133.0
17.7 6052.5
17.74 6270.8
17.78 6199.2
17.82 6126.4
17.86 6226.5
17.9 6020.3
17.94 6054.9
17.98 6155.6
18.02 6066.4
18.06 6094.2
18.1 5976.7
18.14 6015.9
18.18 6011.8
18.22 6021.4
18.26 6055.5
18.3 6081.1
18.34 6079.9
18.38 6135.0
18.42 5951.0
18.46 6094.2
18.5 6040.7
18.54 6015.7
18.58 6231.7
18.62 6026.9
18.66 6001.3
18.7 6138.4
18.74 6047.0
18.78 6169.3
18.82 5965.2
18.86 6057.2
18.9 6118.2
18.94 6147.7
18.98 6052.6
19.02 6127.0
19.06 6031.9
19.1 5996.5
19.14 6119.8
19.18 6168.7
19.22 6026.2
19.26 6095.6
19.3 6275.0
19.34 6171.3
19.38 6104.1
19.42 6285.4
19.46 6103.5
19.5 6239.0
19.54 6404.7
19.58 6345.3
19.62 6354.8
19.66 6338.2
19.7 6472.3
19.74 6453.8
19.78 6597.3
19.82 6617.9
19.86 6563.6
19.9 6799.2
19.94 6899.0
19.98 7014.4
20.02 7106.8
20.06 7088.6
20.1 7378.8
20.14 7645.5
20.18 7899.9
20.22 8070.9
20.26 8600.6
20.3 9033.5
20.34 9707.1
20.38 10659.7
20.42 11597.4
20.46 12634.4
20.5 13633.7
20.54 13815.2
20.58 12935.4
20.62 11735.0
20.66 10610.0
20.7 9615.3
20.74 8899.1
20.78 8523.3
20.82 8049.9
20.86 7690.0
20.9 7589.4
20.94 7429.6
20.98 7281.4
21.02 7259.5
21.06 7076.5
21.1 7151.8
21.14 7032.5
21.18 7071.7
21.22 7139.0
21.26 7079.0
21.3 7180.6
21.34 7266.0
21.38 7372.7
21.42 7573.0
21.46 8008.3
21.5 8062.6
21.54 8304.6
21.58 8707.8
21.62 8997.3
21.66 9249.9
21.7 9274.5
21.74 9039.2
21.78 8442.9
21.82 7673.2
21.86 7088.7
21.9 6734.0
21.94 6244.9
21.98 6144.2
22.02 5911.9
22.06 5809.7
22.1 5770.4
22.14 5684.9
22.18 5553.2
22.22 5539.8
22.26 5332.6
22.3 5481.7
22.34 5245.5
22.38 5251.9
22.42 5215.6
22.46 5102.9
22.5 5047.3
22.54 5134.6
22.58 5135.1
22.62 5077.1
22.66 4971.3
22.7 5242.6
22.74 5167.6
22.78 5185.2
22.82 5189.0
22.86 5188.1
22.9 5117.9
22.94 5010.3
22.98 4998.8
23.02 5015.0
23.06 4960.4
23.1 4824.8
23.14 4931.6
23.18 4781.4
23.22 4873.4
23.26 4688.2
23.3 4787.8
23.34 4646.0
23.38 4672.0
23.42 4647.4
23.46 4591.4
23.5 4596.0
23.54 4618.0
23.58 4521.0
23.62 4626.3
23.66 4641.1
23.7 4467.9
23.74 4496.3
23.78 4529.1
23.82 4630.0
23.86 4483.6
23.9 4463.5
23.94 4585.3
23.98 4610.1
24.02 4760.7
24.06 4865.0
24.1 5263.3
24.14 5679.9
24.18 5382.5
24.22 4838.4
24.26 4540.7
24.3 4432.5
24.34 4315.0
24.38 4343.6
24.42 4414.2
24.46 4292.7
24.5 4344.7
24.54 4379.4
24.58 4216.1
24.62 4202.4
24.66 4181.5
24.7 4252.6
24.74 4096.1
24.78 4246.2
24.82 4308.6
24.86 4201.5
24.9 4150.6
24.94 4200.2
24.98 4202.7
25.02 4204.0
25.06 4144.8
25.1 4108.0
25.14 4196.5
25.18 4128.4
25.22 4126.1
25.26 4092.2
25.3 4177.8
25.34 4238.7
25.38 4214.7
25.42 4186.4
25.46 4170.6
25.5 4227.6
25.54 4257.8
25.58 4143.2
25.62 4147.5
25.66 4158.0
25.7 4092.2
25.74 4160.5
25.78 4090.0
25.82 4016.8
25.86 3998.7
25.9 3971.0
25.94 4075.0
25.98 4088.0
26.02 3946.5
26.06 4118.1
26.1 4001.3
26.14 4049.0
26.18 4015.0
26.22 3976.2
26.26 4010.1
26.3 3955.9
26.34 4030.6
26.38 4006.7
26.42 4028.0
26.46 3969.8
26.5 4070.7
26.54 4004.5
26.58 4072.2
26.62 4050.6
26.66 3964.6
26.7 3940.0
26.74 3885.9
26.78 3968.6
26.82 3984.5
26.86 3892.0
26.9 3959.7
26.94 3957.8
26.98 3969.1
27.02 3823.0
27.06 3829.5
27.1 3873.7
27.14 4003.2
27.18 3924.0
27.22 3987.9
27.26 3950.6
27.3 4071.4
27.34 4026.9
27.38 4135.3
27.42 3997.0
27.46 3973.1
27.5 3908.0
27.54 3941.7
27.58 4026.1
27.62 3959.2
27.66 3983.2
27.7 4003.3
27.74 3935.5
27.78 4032.2
27.82 4064.0
27.86 4087.5
27.9 4153.6
27.94 4177.9
27.98 4266.4
28.02 4263.1
28.06 4252.4
28.1 4254.9
28.14 4310.8
28.18 4256.3
28.22 4213.6
28.26 4217.1
28.3 4290.9
28.34 4270.3
28.38 4334.8
28.42 4525.6
28.46 4428.7
28.5 4581.7
28.54 4529.5
28.58 4687.4
28.62 4759.2
28.66 5039.7
28.7 5114.2
28.74 5351.4
28.78 5530.7
28.82 6017.8
28.86 6553.6
28.9 7072.6
28.94 7564.2
28.98 8268.8
29.02 9058.7
29.06 9646.5
29.1 10333.3
29.14 10628.4
29.18 10556.0
29.22 9813.3
29.26 8786.4
29.3 7823.1
29.34 6958.8
29.38 6368.5
29.42 5942.2
29.46 5634.1
29.5 5268.7
29.54 5265.2
29.58 5127.7
29.62 4983.8
29.66 4834.2
29.7 4823.6
29.74 4703.9
29.78 4660.5
29.82 4593.4
29.86 4688.6
29.9 4637.1
29.94 4617.2
29.98 4699.0
30.02 4645.4
30.06 4549.3
30.1 4646.7
30.14 4723.3
30.18 4798.1
30.22 4849.4
30.26 4774.1
30.3 4888.8
30.34 5032.5
30.38 5053.3
30.42 5121.3
30.46 5324.6
30.5 5353.9
30.54 5528.3
30.58 5722.4
30.62 6042.3
30.66 6439.1
30.7 6574.0
30.74 7335.1
30.78 8124.1
30.82 9569.2
30.86 11995.5
30.9 14683.7
30.94 15651.1
30.98 16029.0
31.02 16432.7
31.06 17222.2
31.1 17645.4
31.14 17140.9
31.18 15879.7
31.22 14727.5
31.26 13149.8
31.3 11895.1
31.34 10860.2
31.38 9912.7
31.42 9514.4
31.46 8980.1
31.5 8364.0
31.54 8096.7
31.58 7826.5
31.62 7782.0
31.66 7464.7
31.7 7172.1
31.74 7028.8
31.78 6917.0
31.82 6852.0
31.86 6774.3
31.9 6602.6
31.94 6304.5
31.98 6130.4
32.02 5965.3
32.06 5810.3
32.1 5758.2
32.14 5532.6
32.18 5555.4
32.22 5481.3
32.26 5446.0
32.3 5507.9
32.34 5541.8
32.38 5815.0
32.42 5854.9
32.46 5651.0
32.5 5159.0
32.54 4739.9
32.58 4575.9
32.62 4431.9
32.66 4434.0
32.7 4423.0
32.74 4287.3
32.78 4207.7
32.82 4146.4
32.86 4043.7
32.9 3981.6
32.94 3987.5
32.98 3955.2
33.02 3878.8
33.06 3939.9
33.1 3819.8
33.14 3837.5
33.18 3796.4
33.22 3730.5
33.26 3725.4
33.3 3765.6
33.34 3670.4
33.38 3697.0
33.42 3663.5
33.46 3604.5
33.5 3624.0
33.54 3579.5
33.58 3578.9
33.62 3643.8
33.66 3610.3
33.7 3494.0
33.74 3625.7
33.78 3560.7
33.82 3606.7
33.86 3545.2
33.9 3533.2
33.94 3449.6
33.98 3411.9
34.02 3503.1
34.06 3489.3
34.1 3467.5
34.14 3424.9
34.18 3445.1
34.22 3515.7
34.26 3411.1
34.3 3357.0
34.34 3500.4
34.38 3319.4
34.42 3460.4
34.46 3365.8
34.5 3414.0
34.54 3441.1
34.58 3453.6
34.62 3516.9
34.66 3510.3
34.7 3420.2
34.74 3389.5
34.78 3391.8
34.82 3296.8
34.86 3395.9
34.9 3403.9
34.94 3494.3
34.98 3383.6
35.02 3325.2
35.06 3357.4
35.1 3358.9
35.14 3329.7
35.18 3351.6
35.22 3296.0
35.26 3344.0
35.3 3350.6
35.34 3313.8
35.38 3294.5
35.42 3392.8
35.46 3335.2
35.5 3397.0
35.54 3300.3
35.58 3289.7
35.62 3342.7
35.66 3298.1
35.7 3316.3
35.74 3364.4
35.78 3346.5
35.82 3279.2
35.86 3478.6
35.9 3315.4
35.94 3262.9
35.98 3394.8
36.02 3384.8
36.06 3309.0
36.1 3358.1
36.14 3531.4
36.18 3448.7
36.22 3497.9
36.26 3600.6
36.3 3584.5
36.34 3694.9
36.38 3671.0
36.42 3757.9
36.46 3819.0
36.5 3860.8
36.54 3864.5
36.58 3879.0
36.62 3938.7
36.66 3905.0
36.7 3990.9
36.74 3959.5
36.78 3847.9
36.82 3767.9
36.86 3624.9
36.9 3470.9
36.94 3383.0
36.98 3367.2
37.02 3398.7
37.06 3328.3
37.1 3297.0
37.14 3268.4
37.18 3294.1
37.22 3278.0
37.26 3238.3
37.3 3250.4
37.34 3252.1
37.38 3226.9
37.42 3157.9
37.46 3183.8
37.5 3090.9
37.54 3149.2
37.58 3031.0
37.62 3117.6
37.66 3091.2
37.7 3059.6
37.74 2943.0
37.78 3092.1
37.82 3079.6
37.86 2959.9
37.9 2947.4
37.94 2948.7
37.98 3062.1
38.02 2943.5
38.06 2979.0
38.1 2980.0
38.14 2980.2
38.18 3004.3
38.22 3049.5
38.26 3079.9
38.3 2973.0
38.34 3069.4
38.38 3232.6
38.42 3304.7
38.46 3505.0
38.5 3580.8
38.54 3658.4
38.58 3489.4
38.62 3373.0
38.66 3307.6
38.7 3201.7
38.74 3069.8
38.78 2952.3
38.82 2969.3
38.86 2963.9
38.9 2986.4
38.94 2938.5
38.98 2889.5
39.02 2898.3
39.06 2943.7
39.1 2810.8
39.14 2894.1
39.18 2871.4
39.22 2809.8
39.26 2927.3
39.3 2844.2
39.34 2819.5
39.38 2850.4
39.42 2891.5
39.46 2778.0
39.5 2793.1
39.54 2823.1
39.58 2871.3
39.62 2790.3
39.66 2810.1
39.7 2859.9
39.74 2854.0
39.78 2831.1
39.82 2833.7
39.86 2868.5
39.9 2714.0
39.94 2822.1
39.98 2850.8
40.02 2892.6
40.06 2856.4
40.1 2886.9
40.14 2920.9
40.18 2859.5
40.22 2895.2
40.26 2954.0
40.3 2978.3
40.34 2859.3
40.38 2930.5
40.42 2935.7
40.46 2968.9
40.5 3081.3
40.54 3028.7
40.58 2960.1
40.62 2987.2
40.66 3022.5
40.7 2995.7
40.74 3015.3
40.78 3018.4
40.82 2923.1
40.86 2953.4
40.9 2895.5
40.94 2983.0
40.98 2885.4
41.02 2763.9
41.06 2876.9
41.1 2904.7
41.14 2832.7
41.18 2870.1
41.22 2842.8
41.26 2887.3
41.3 2862.7
41.34 2860.4
41.38 2879.4
41.42 2966.4
41.46 2983.6
41.5 3112.3
41.54 3015.6
41.58 3027.8
41.62 3185.9
41.66 3101.2
41.7 3102.8
41.74 3268.5
41.78 3359.7
41.82 3407.5
41.86 3453.7
41.9 3558.9
41.94 3514.2
41.98 3531.7
42.02 3444.1
42.06 3246.2
42.1 3254.9
42.14 2991.5
42.18 2955.6
42.22 2846.5
42.26 2860.8
42.3 2835.1
42.34 2814.2
42.38 2709.7
42.42 2654.5
42.46 2702.2
42.5 2765.1
42.54 2877.3
42.58 2925.5
42.62 2868.0
42.66 2791.6
42.7 2781.2
42.74 2660.6
42.78 2666.9
42.82 2632.3
42.86 2668.7
42.9 2570.4
42.94 2626.7
42.98 2592.9
43.02 2622.3
43.06 2588.9
43.1 2557.1
43.14 2557.8
43.18 2661.5
43.22 2586.1
43.26 2540.4
43.3 2539.7
43.34 2579.6
43.38 2569.6
43.42 2627.7
43.46 2648.7
43.5 2646.6
43.54 2557.1
43.58 2634.3
43.62 2708.3
43.66 2682.6
43.7 2568.8
43.74 2543.5
43.78 2633.5
43.82 2567.6
43.86 2606.0
43.9 2557.3
43.94 2527.1
43.98 2606.6
44.02 2543.4
44.06 2616.5
44.1 2579.6
44.14 2543.0
44.18 2533.9
44.22 2461.3
44.26 2530.3
44.3 2525.8
44.34 2495.3
44.38 2458.6
44.42 2483.6
44.46 2452.9
44.5 2447.9
44.54 2448.8
44.58 2431.2
44.62 2466.8
44.66 2425.6
44.7 2475.2
44.74 2504.3
44.78 2383.2
44.82 2402.8
44.86 2448.8
44.9 2385.2
44.94 2447.1
44.98 2428.9